Folder: AUTOTWIN

Note: README.md
# AUTOTWIN
Our final year project on AI Powered Digital Twin for Auto Mobile Industry

File: B0043_lstm_ready.csv
AvgVoltage_x,MinVoltage,AvgCurrent_x,MaxTemp_x,DischargeCapacity_Ah,Cycle,RUL,AvgVoltage_y,AvgCurrent_y,MaxTemp_y,CycleCapacity_Ah,Avg_Battery_Impedance,Max_Battery_Impedance,Avg_Rectified_Impedance,Avg_Current_Ratio,Avg_Sense_Current,Avg_Battery_Current
3.47591,2.42131,-1.8551,36.8424,1.73243,1,41,4.2113,0.104881,23.5713,1.4984e-10,0.229481,0.357591,0.0876054,2.89389,857.682,304.728
3.49012,2.39976,-1.88406,36.1286,1.70039,3,39,4.14543,0.608096,33.3758,1.70244e-09,0.221566,0.35385,0.080945,2.81305,852.469,310.959
3.50055,2.37864,-1.91037,36.7526,1.68855,5,37,4.14703,0.604396,34.096,1.6935e-09,0.217649,0.353222,0.0779806,2.78065,849.844,313.871
3.50747,2.41629,-1.9268,36.8314,1.67505,7,35,4.16405,0.532108,33.798,1.46998e-09,0.216752,0.351812,0.0772181,2.77173,848.924,314.569
3.50515,2.46665,-1.92551,36.2237,1.65638,9,33,4.14971,0.587166,35.3386,1.665e-09,0.215729,0.350182,0.0763043,2.76111,848.074,315.514
3.50073,2.40241,-1.92444,36.1961,1.64761,11,31,4.16022,0.584793,26.7838,1.6589e-09,0.21518,0.350584,0.0757564,2.7557,847.644,316.095
3.50025,2.41579,-1.9169,36.0905,1.63249,13,29,4.15346,0.573309,34.7995,1.63445e-09,0.215223,0.350804,0.0757578,2.75604,847.617,316.046
3.50049,2.43747,-1.91573,36.158,1.62041,15,27,4.15493,0.570849,34.7172,1.6283e-09,0.219323,0.35282,0.0793535,2.79345,851.015,312.674
3.49932,2.44892,-1.90787,36.1318,1.60992,17,25,4.15634,0.568472,34.4781,1.62484e-09,0.220782,0.356281,0.0801362,2.8073,851.832,311.668
3.49755,2.47399,-1.90001,36.1154,1.59495,19,23,4.15828,0.557736,34.3154,1.60075e-09,0.244322,0.392296,0.108106,3.12018,875.208,287.553
3.49314,2.38978,-1.89295,36.7341,1.61002,21,21,4.16703,0.557845,26.6522,1.59877e-09,0.24896,0.403745,0.111028,3.16651,878.018,284.464
3.50266,2.42756,-1.89177,37.4094,1.59597,23,19,4.1568,0.559995,35.4973,1.60551e-09,0.241216,0.39305,0.105123,3.0971,873.148,289.382
3.49676,2.39479,-1.89685,37.27,1.57967,25,17,4.15947,0.549438,35.22,1.58454e-09,0.242087,0.38669,0.106435,3.09984,873.751,289.052
3.49809,2.47427,-1.88182,37.5757,1.56922,27,15,4.16734,0.550102,27.7262,1.57209e-09,0.256485,0.41493,0.116196,3.22876,882.085,280.093
3.49874,2.48388,-1.88058,37.6984,1.55801,29,13,4.1612,0.544727,35.614,1.57167e-09,0.257682,0.41706,0.117097,3.23561,882.446,279.681
3.48954,2.39753,-1.87904,37.5846,1.54664,31,11,4.16268,0.541122,35.7394,1.55914e-09,0.255461,0.414955,0.115787,3.22275,881.744,280.436
3.4906,2.46493,-1.8702,37.8381,1.53555,33,9,4.16437,0.530562,35.0896,1.53468e-09,0.251576,0.407682,0.113438,3.18982,879.654,282.589
3.48429,2.48078,-1.86814,37.4342,1.51587,35,7,4.16526,0.525067,35.2331,1.52195e-09,0.254053,0.412133,0.114659,3.20868,880.868,281.462
3.4751,2.39747,-1.85949,37.586,1.50871,37,5,4.17593,0.504624,27.1868,1.50108e-09,0.25193,0.409761,0.113188,3.1881,879.634,282.741
3.48217,2.467,-1.85805,38.0343,1.50145,39,3,4.16707,0.519072,35.4757,1.50328e-09,0.250836,0.402348,0.112342,3.17608,878.823,283.497
3.47148,2.40149,-1.86344,37.7217,1.48569,41,1,4.16877,0.512377,35.2426,1.48729e-09,0.254118,0.406736,0.114472,3.20344,880.851,281.487
4.04983,2.42764,-0.277907,10.0731,0.0777475,43,0,4.20296,0.0219139,6.1275,6.67109e-11,0.253011,0.407694,0.11363,3.19409,880.2,282.178
4.04455,2.36044,-0.288182,9.49838,0.0783391,45,0,4.20312,0.0237482,6.53074,7.19207e-11,0.254576,0.404984,0.115165,3.2079,881.312,281.187
4.04459,2.48467,-0.297349,8.97954,0.0871984,47,0,4.20393,0.0280845,6.22945,8.5708e-11,0.256627,0.410156,0.117297,3.23278,882.622,279.698
4.03824,2.3976,-0.30667,10.1208,0.0881131,49,0,4.20409,0.0268611,6.4095,8.16832e-11,0.261495,0.421282,0.119499,3.26601,884.72,277.601
4.06194,2.48475,-0.263541,7.98196,0.0761286,51,0,4.2044,0.0305395,6.29272,8.08937e-11,0.261495,0.421282,0.119499,3.26601,884.72,277.601
4.03613,2.40907,-0.313561,8.94722,0.0891283,53,0,4.20336,0.0265309,6.6874,8.10655e-11,0.261495,0.421282,0.119499,3.26601,884.72,277.601
4.05732,2.43476,-0.271668,8.21483,0.0770743,55,0,4.20387,0.0239918,6.25163,7.2692e-11,0.261495,0.421282,0.119499,3.26601,884.72,277.601
4.05179,2.45171,-0.284766,9.44725,0.080596,57,0,4.20414,0.0272946,6.20754,8.32646e-11,0.261495,0.421282,0.119499,3.26601,884.72,277.601
4.05502,2.47424,-0.281778,9.28997,0.0781355,59,0,4.20358,0.0279534,6.5329,8.45631e-11,0.261495,0.421282,0.119499,3.26601,884.72,277.601
4.05242,2.44421,-0.284644,9.26999,0.0787346,61,0,4.20342,0.0273516,6.58434,8.33953e-11,0.261495,0.421282,0.119499,3.26601,884.72,277.601
4.04812,2.36565,-0.288367,8.84115,0.0791022,63,0,4.20352,0.0281933,6.62634,8.57222e-11,0.261495,0.421282,0.119499,3.26601,884.72,277.601
3.98921,2.47801,-0.481064,9.77587,0.0789664,65,0,4.20322,0.024129,6.32859,7.33355e-11,0.261495,0.421282,0.119499,3.26601,884.72,277.601
4.05298,2.45399,-0.275274,7.95308,0.0800411,67,0,4.20353,0.0253558,6.22489,7.26323e-11,0.261495,0.421282,0.119499,3.26601,884.72,277.601
4.02676,2.34527,-0.331536,10.8619,0.09354,69,0,4.2029,0.0242799,6.32442,7.34277e-11,0.261495,0.421282,0.119499,3.26601,884.72,277.601
4.04997,2.34524,-0.2816,8.74013,0.0810822,71,0,4.20332,0.0250011,6.34095,7.62615e-11,0.261495,0.421282,0.119499,3.26601,884.72,277.601
4.05026,2.45187,-0.291218,8.1236,0.0811654,73,0,4.20336,0.0251825,6.17572,7.64007e-11,0.261495,0.421282,0.119499,3.26601,884.72,277.601
4.04947,2.46934,-0.295218,8.68982,0.0817336,75,0,4.20268,0.0251847,6.58605,7.61698e-11,0.261495,0.421282,0.119499,3.26601,884.72,277.601
4.04662,2.45599,-0.302544,8.76675,0.0821395,77,0,4.20293,0.0249633,6.92013,7.53451e-11,0.261495,0.421282,0.119499,3.26601,884.72,277.601
4.04502,2.44011,-0.306248,10.0977,0.0825715,79,0,4.20295,0.0253123,6.67732,7.65195e-11,0.261495,0.421282,0.119499,3.26601,884.72,277.601
3.98007,2.38187,-0.490534,9.86739,0.0825963,81,0,4.20322,0.0258437,6.56102,7.84437e-11,0.261495,0.421282,0.119499,3.26601,884.72,277.601
3.43665,2.36427,-2.38698,8.23023,0.0824197,83,0,4.20901,0.0575307,6.24312,7.80037e-11,0.261495,0.421282,0.119499,3.26601,884.72,277.601
3.42232,2.30897,-2.38705,9.56697,0.0821646,85,0,4.21222,0.0955413,9.07239,8.02827e-11,0.261495,0.421282,0.119499,3.26601,884.72,277.601
3.33085,2.22717,-2.65155,8.8491,0.0828442,87,0,4.21222,0.0821808,7.47045,6.78594e-11,0.261495,0.421282,0.119499,3.26601,884.72,277.601
3.48966,2.47005,-0.991784,10.4648,1.57547,89,0,4.19419,0.533332,8.79593,1.57424e-09,0.261495,0.421282,0.119499,3.26601,884.72,277.601
3.48285,2.46814,-0.99157,11.4659,1.55607,91,0,4.18871,0.526356,10.7662,1.55417e-09,0.261495,0.421282,0.119499,3.26601,884.72,277.601
3.47236,2.4821,-0.987045,11.5532,1.53049,93,0,4.19042,0.517249,10.1977,1.52932e-09,0.261495,0.421282,0.119499,3.26601,884.72,277.601
3.46217,2.46244,-0.980082,10.6789,1.50478,95,0,4.19253,0.508487,9.64261,1.50672e-09,0.261495,0.421282,0.119499,3.26601,884.72,277.601
3.44922,2.46279,-0.975332,11.6375,1.48338,97,0,4.19396,0.500563,8.7446,1.48258e-09,0.261495,0.421282,0.119499,3.26601,884.72,277.601
3.43588,2.473,-0.970257,11.7173,1.45961,99,0,4.19985,0.490273,8.52339,1.45584e-09,0.261495,0.421282,0.119499,3.26601,884.72,277.601
3.43716,2.48331,-0.96242,11.2741,1.432,101,0,4.19639,0.48439,9.99063,1.43742e-09,0.261495,0.421282,0.119499,3.26601,884.72,277.601
3.43128,2.49952,-0.956961,11.4693,1.40783,103,0,4.19833,0.475335,9.52055,1.40971e-09,0.261495,0.421282,0.119499,3.26601,884.72,277.601
3.42578,2.46672,-0.954133,11.2616,1.389,105,0,4.19844,0.467389,9.3297,1.39116e-09,0.261495,0.421282,0.119499,3.26601,884.72,277.601
3.41955,2.48485,-0.943213,11.164,1.35948,107,0,4.19974,0.460508,8.6853,1.36889e-09,0.261495,0.421282,0.119499,3.26601,884.72,277.601
3.40736,2.47258,-0.940332,11.7352,1.3458,109,0,4.20453,0.450057,8.55449,1.34301e-09,0.261495,0.421282,0.119499,3.26601,884.72,277.601
3.40862,2.48552,-0.934001,11.3769,1.31984,111,0,4.20156,0.445213,9.05766,1.32382e-09,0.261495,0.421282,0.119499,3.26601,884.72,277.601
3.4058,2.4998,-0.930823,11.4888,1.30841,112,0,4.2022,0.439953,9.04007,1.31227e-09,0.261495,0.421282,0.119499,3.26601,884.72,277.601

File: B0045_lstm_ready.csv
AvgVoltage_x,MinVoltage,AvgCurrent_x,MaxTemp_x,DischargeCapacity_Ah,Cycle,RUL,AvgVoltage_y,AvgCurrent_y,MaxTemp_y,CycleCapacity_Ah,Avg_Battery_Impedance,Max_Battery_Impedance,Avg_Rectified_Impedance,Avg_Current_Ratio,Avg_Sense_Current,Avg_Battery_Current
3.35071,1.99088,-0.679568,15.7104,1.2129,1,5,4.20389,0.360759,8.78565,1.06355e-09,0.269326,0.46342,0.110427,3.21501,881.035,282.01
3.34371,1.9876,-0.684795,16.3279,1.07398,2,4,4.20385,0.353247,8.85313,1.04291e-09,0.263835,0.442214,0.109139,3.19388,880.374,283.023
3.35711,1.98854,-0.664616,16.1905,1.03136,3,3,4.20414,0.342066,8.77629,1.0096e-09,0.269724,0.459632,0.111355,3.23286,882.55,280.75
3.35865,1.96924,-0.650932,16.4456,1.00102,4,2,4.20416,0.33361,8.77535,9.84851e-10,0.263229,0.439918,0.108945,3.19294,880.257,282.955
3.36606,1.98305,-0.640228,16.6528,0.976617,5,1,4.20421,0.326176,8.71806,9.63616e-10,0.270683,0.465533,0.111061,3.23083,882.174,281.019
3.36791,1.98046,-0.631703,16.626,0.956943,6,0,4.20429,0.319088,8.48316,9.43085e-10,0.268479,0.448752,0.111659,3.22443,882.404,280.978
3.35775,1.98222,-0.617623,16.2317,0.93383,7,0,4.20431,0.31999,8.58096,9.48815e-10,0.277997,0.499748,0.114788,3.2712,884.853,278.4
3.36966,1.99871,-0.627554,16.1857,0.951632,8,0,4.20411,0.317894,8.56076,9.38959e-10,0.268756,0.444457,0.11297,3.23374,882.915,280.325
3.37473,1.97927,-0.622796,16.5262,0.934923,9,0,4.20433,0.312139,8.84038,9.21731e-10,0.273697,0.472342,0.112825,3.25662,883.586,279.377
3.3818,1.96405,-0.616436,15.1964,0.918153,10,0,4.20421,0.30788,8.53855,9.09567e-10,0.264523,0.447551,0.108988,3.19729,880.397,282.732
3.38518,1.99656,-0.612495,16.3544,0.904689,11,0,4.20442,0.303055,8.77928,8.97178e-10,0.281637,0.523425,0.116621,3.29518,886.365,276.899
3.38131,1.96761,-0.612075,15.5702,0.899556,12,0,4.20452,0.298745,8.55644,8.85741e-10,0.27287,0.460035,0.113806,3.25408,884.061,279.191
3.34904,1.9877,-0.615898,16.4819,0.917214,13,0,4.20429,0.319584,8.64083,9.46158e-10,0.278479,0.472258,0.116848,3.29618,886.336,276.77
3.36945,1.99572,-0.625377,16.6864,0.937705,14,0,4.20422,0.311482,8.69401,9.22589e-10,0.276861,0.466902,0.115859,3.27736,885.404,277.599
3.37711,1.97239,-0.618022,16.5273,0.91769,15,0,4.20427,0.30489,8.61296,9.03708e-10,0.281502,0.519063,0.116402,3.29637,886.31,276.821
3.3821,1.97601,-0.612175,16.3251,0.896669,16,0,4.20443,0.299754,8.74071,8.87754e-10,0.27302,0.458309,0.114645,3.26176,884.509,278.551
3.386,1.97868,-0.606432,16.1878,0.882598,17,0,4.20444,0.295137,8.75148,8.75085e-10,0.285897,0.595832,0.117076,3.30457,886.923,276.374
3.38303,1.98665,-0.6064,16.5487,0.87503,18,0,4.20464,0.290571,8.5827,8.61839e-10,0.2742,0.460876,0.114695,3.26248,884.636,278.492
3.37881,1.99153,-0.602253,15.8934,0.862348,19,0,4.20431,0.291039,8.35285,8.62159e-10,0.278287,0.50901,0.113908,3.27155,884.529,278.43
3.40671,2.94242,-0.99419,11.6245,0.663382,20,0,4.20321,0.235755,9.90478,7.00312e-10,0.271976,0.458536,0.113401,3.24686,883.628,279.523
3.38906,1.99356,-0.586186,16.2736,0.867798,21,0,4.20453,0.28128,8.58966,8.33936e-10,0.289564,0.620488,0.119446,3.33528,888.379,274.508
3.37839,1.99371,-0.603725,16.5777,0.854437,22,0,4.20444,0.284232,8.49789,8.43689e-10,0.274499,0.459982,0.11495,3.27008,884.923,278.034
3.37793,1.9841,-0.60398,16.4519,0.846195,23,0,4.20475,0.279423,8.51078,8.32088e-10,0.287136,0.604039,0.118374,3.31751,887.572,275.54
3.37272,1.98183,-0.601755,16.6604,0.839316,24,0,4.20447,0.282153,8.28562,8.38369e-10,0.27781,0.469529,0.115898,3.28276,885.677,277.294
3.38074,1.9985,-0.603809,16.1928,0.83677,25,0,4.20455,0.279981,8.58138,8.30112e-10,0.294048,0.704674,0.120044,3.34281,889.032,274.108
3.38891,1.98866,-0.600483,14.7429,0.826516,26,0,4.20448,0.276834,8.20802,8.22354e-10,0.282326,0.475624,0.119108,3.31899,887.767,275.01
3.38554,1.98366,-0.603308,14.6935,0.821175,27,0,4.20454,0.274887,8.20068,8.16992e-10,0.286744,0.595592,0.118117,3.31686,887.612,275.67
3.37569,1.97057,-0.606562,15.8698,0.822653,28,0,4.20466,0.272036,8.35918,8.10529e-10,0.282033,0.491131,0.11768,3.30315,886.879,275.979
3.37794,1.97178,-0.60144,14.8297,0.811467,29,0,4.20454,0.274073,8.34528,8.14269e-10,0.295186,0.755511,0.118941,3.33911,888.301,274.537
3.37356,1.99384,-0.609801,15.9065,0.818259,30,0,4.20461,0.272816,8.481,8.10504e-10,0.281703,0.508154,0.116817,3.29564,886.459,276.64
3.36874,1.99936,-0.612066,16.3538,0.815646,31,0,4.20449,0.272359,8.59033,8.09179e-10,0.291138,0.649621,0.119657,3.33939,888.501,274.266
3.3718,1.99328,-0.613283,15.0765,0.810042,32,0,4.20463,0.271297,8.20968,8.06449e-10,0.277457,0.468521,0.115995,3.28245,885.654,277.187
3.36636,1.98011,-0.613952,16.0459,0.807999,33,0,4.20466,0.267137,8.18286,7.96868e-10,0.286078,0.612794,0.116554,3.30567,886.726,276.413
3.34228,1.9944,-0.600481,16.2482,0.819451,34,0,4.20463,0.288528,8.51915,8.58936e-10,0.283115,0.496738,0.118336,3.3127,887.306,275.453
3.37227,1.99131,-0.612942,15.7619,0.850201,35,0,4.20448,0.282583,8.58507,8.39051e-10,0.278602,0.475094,0.116179,3.29117,886.103,276.958
3.35763,1.98181,-0.624215,16.3494,0.847236,36,0,4.20449,0.276615,8.57748,8.31755e-10,0.284311,0.485844,0.119765,3.33055,888.334,274.281
3.3698,1.99999,-0.613917,16.2225,0.825208,37,0,4.20459,0.275252,8.5755,8.17394e-10,0.285777,0.616918,0.115981,3.30141,886.36,276.774
3.37667,1.97466,-0.609242,14.78,0.81206,38,0,4.20457,0.27097,8.2668,8.06524e-10,0.277308,0.468551,0.115895,3.28149,885.559,277.301
3.35669,1.97818,-0.621437,16.3571,0.817439,39,0,4.20477,0.269275,8.43955,8.02524e-10,0.287869,0.606918,0.118235,3.325,887.934,275.145
3.37166,1.98451,-0.604963,15.304,0.794732,40,0,4.20462,0.268073,8.31457,7.97065e-10,0.282911,0.48583,0.118439,3.31377,887.859,275.412
3.35846,1.99217,-0.620639,16.2981,0.804826,41,0,4.20164,0.263734,8.48388,7.84883e-10,0.282911,0.48583,0.118439,3.31377,887.859,275.412
3.37332,1.99912,-0.601388,15.0882,0.773814,42,0,4.20454,0.26424,8.17457,7.85542e-10,0.282911,0.48583,0.118439,3.31377,887.859,275.412
3.36763,1.97908,-0.614627,15.2018,0.787747,43,0,4.20459,0.262757,8.25946,7.81987e-10,0.282911,0.48583,0.118439,3.31377,887.859,275.412
3.36332,1.99864,-0.617109,15.8205,0.784963,44,0,4.20475,0.259408,8.08602,7.73581e-10,0.282911,0.48583,0.118439,3.31377,887.859,275.412
3.34649,1.97137,-0.620923,15.5807,0.785817,45,0,4.20457,0.261072,8.48574,7.84955e-10,0.282911,0.48583,0.118439,3.31377,887.859,275.412
3.3599,1.98431,-0.62043,14.525,0.77942,46,0,4.2046,0.260846,8.48287,7.75256e-10,0.282911,0.48583,0.118439,3.31377,887.859,275.412
3.34964,1.99468,-0.624495,16.2563,0.781294,47,0,4.20476,0.260331,8.35038,7.74564e-10,0.282911,0.48583,0.118439,3.31377,887.859,275.412
3.35242,1.97899,-0.621988,15.9165,0.774609,48,0,4.20462,0.258212,8.18222,7.68889e-10,0.282911,0.48583,0.118439,3.31377,887.859,275.412
3.35631,1.96909,-0.624905,15.3227,0.768123,49,0,4.20475,0.253169,8.16257,7.58053e-10,0.282911,0.48583,0.118439,3.31377,887.859,275.412
3.3406,1.99511,-0.623564,16.4355,0.769326,50,0,4.20462,0.258515,8.47729,7.69061e-10,0.282911,0.48583,0.118439,3.31377,887.859,275.412
3.34851,1.9652,-0.627719,14.7529,0.770347,51,0,4.20462,0.257114,8.47379,7.65278e-10,0.282911,0.48583,0.118439,3.31377,887.859,275.412
3.33288,1.98203,-0.634072,16.5733,0.772355,52,0,4.20469,0.256853,8.36648,7.64589e-10,0.282911,0.48583,0.118439,3.31377,887.859,275.412
3.35182,1.9731,-0.626972,14.5284,0.757475,53,0,4.20473,0.25364,8.51718,7.54804e-10,0.282911,0.48583,0.118439,3.31377,887.859,275.412
3.26833,1.99744,-0.759652,15.8283,0.758213,54,0,4.20464,0.250757,8.02534,7.48838e-10,0.282911,0.48583,0.118439,3.31377,887.859,275.412
3.33686,1.97595,-0.585763,15.0509,0.772132,55,0,4.20478,0.271669,8.49411,8.10027e-10,0.282911,0.48583,0.118439,3.31377,887.859,275.412
3.33931,1.99442,-0.623485,16.8789,0.810188,56,0,4.20452,0.267407,8.59815,7.96069e-10,0.282911,0.48583,0.118439,3.31377,887.859,275.412
3.33957,1.97239,-0.625756,16.7529,0.799278,57,0,4.20462,0.263695,8.51633,7.8559e-10,0.282911,0.48583,0.118439,3.31377,887.859,275.412
3.34517,1.99326,-0.62063,16.6307,0.784064,58,0,4.20476,0.261143,8.56316,7.76614e-10,0.282911,0.48583,0.118439,3.31377,887.859,275.412
3.35448,1.98489,-0.614906,15.2707,0.773543,59,0,4.20453,0.258085,8.43747,7.67442e-10,0.282911,0.48583,0.118439,3.31377,887.859,275.412
3.34119,1.96837,-0.620875,16.4381,0.774385,60,0,4.20475,0.254888,8.30821,7.60061e-10,0.282911,0.48583,0.118439,3.31377,887.859,275.412
3.33724,1.9924,-0.595371,15.6599,0.746836,61,0,4.19329,0.247131,8.37976,7.38733e-10,0.282911,0.48583,0.118439,3.31377,887.859,275.412
3.35103,1.97761,-0.589751,15.2657,0.748621,62,0,4.20473,0.260375,8.47519,7.7476e-10,0.282911,0.48583,0.118439,3.31377,887.859,275.412
3.35731,1.99698,-0.612902,15.4599,0.766761,63,0,4.20465,0.254743,8.38753,7.58372e-10,0.282911,0.48583,0.118439,3.31377,887.859,275.412
3.3367,1.9823,-0.62322,16.4727,0.767775,64,0,4.20464,0.254566,8.15628,7.57327e-10,0.282911,0.48583,0.118439,3.31377,887.859,275.412
3.35076,1.97035,-0.613701,15.3219,0.752672,65,0,4.20461,0.250843,8.24753,7.47304e-10,0.282911,0.48583,0.118439,3.31377,887.859,275.412
3.39255,2.93297,-0.990152,11.7091,0.553594,66,0,4.20521,0.194164,8.16861,5.81036e-10,0.282911,0.48583,0.118439,3.31377,887.859,275.412
3.34526,1.9805,-0.572134,15.4692,0.776092,67,0,4.20475,0.262922,8.34276,7.83895e-10,0.282911,0.48583,0.118439,3.31377,887.859,275.412
3.34782,1.97542,-0.606741,15.9092,0.786623,68,0,4.20469,0.259195,8.48454,7.71903e-10,0.282911,0.48583,0.118439,3.31377,887.859,275.412
3.35004,1.98431,-0.609121,16.1283,0.775455,69,0,4.20464,0.255163,8.48188,7.59881e-10,0.282911,0.48583,0.118439,3.31377,887.859,275.412
3.35906,1.98817,-0.59968,15.8033,0.759075,70,0,4.20484,0.251991,8.39868,7.49919e-10,0.282911,0.48583,0.118439,3.31377,887.859,275.412
3.34959,1.98095,-0.606261,15.4635,0.756338,71,0,4.20457,0.250621,8.15833,7.46269e-10,0.282911,0.48583,0.118439,3.31377,887.859,275.412
3.34626,1.96979,-0.605525,16.2695,0.749257,72,0,4.20481,0.246089,8.29326,7.35227e-10,0.282911,0.48583,0.118439,3.31377,887.859,275.412

File: battery_final_dataset_clean.csv
File_x,AvgVoltage_x,MinVoltage,AvgCurrent_x,MaxTemp_x,DischargeCapacity_Ah,Cycle,RUL,File_y,AvgVoltage_y,AvgCurrent_y,MaxTemp_y,CycleCapacity_Ah,File,Avg_Battery_Impedance,Max_Battery_Impedance,Avg_Rectified_Impedance,Avg_Current_Ratio,Avg_Sense_Current,Avg_Battery_Current,SOH
00001.csv,3.47527,2.47061,-0.952767,12.3768,1.70599,1,17,00003.csv,4.19352,0.520792,8.79362,1.54061e-09,00002.csv,0.213929,0.384859,0.0841214,2.87031,856.063,308.673,1.0
00007.csv,3.47077,2.47071,-0.983889,11.6245,1.53237,3,15,00008.csv,4.18966,0.513528,9.37129,1.52048e-09,00014.csv,0.222013,0.395029,0.0893689,2.9309,860.851,303.513,0.89823
00011.csv,3.46284,2.46577,-0.976262,11.021,1.49531,5,13,00012.csv,4.19311,0.501276,9.97744,1.48582e-09,00018.csv,0.219014,0.391481,0.0873054,2.90716,859.136,305.499,0.876505
00017.csv,3.44087,2.48413,-0.970933,11.877,1.47412,7,11,00019.csv,4.1963,0.494706,8.54999,1.47238e-09,00030.csv,0.217848,0.374945,0.0879253,2.90169,859.021,305.219,0.864088
00023.csv,3.44967,2.4983,-0.958292,11.3474,1.44385,9,9,00024.csv,4.19519,0.484474,8.8773,1.43589e-09,00034.csv,0.22208,0.394381,0.0904309,2.94428,861.91,302.246,0.846344
00027.csv,3.44183,2.49194,-0.952784,11.5574,1.41319,11,7,00028.csv,4.19846,0.473344,8.7934,1.40572e-09,00046.csv,0.225867,0.394228,0.0935337,2.97381,864.212,299.646,0.828368
00033.csv,3.43012,2.4792,-0.962375,11.311,1.43848,13,5,00035.csv,4.20095,0.487987,8.87507,1.44926e-09,00058.csv,0.232248,0.396928,0.098152,3.02492,867.842,295.655,0.843194
00039.csv,3.44247,2.49157,-0.949764,11.1502,1.41547,15,3,00040.csv,4.19868,0.472575,9.11784,1.40525e-09,00070.csv,0.239094,0.407911,0.102284,3.07634,871.446,292.155,0.829705
00043.csv,3.43275,2.48891,-0.94343,11.6998,1.37851,17,1,00044.csv,4.19949,0.460581,8.77549,1.36993e-09,00082.csv,0.244621,0.413963,0.105658,3.11019,873.834,289.539,0.808043
00049.csv,3.41847,2.48222,-0.937155,11.7296,1.34788,19,0,00050.csv,4.20069,0.452677,9.25659,1.34512e-09,00086.csv,0.23559,0.40966,0.0989269,3.04127,868.703,294.676,0.790086
00053.csv,3.41568,2.48126,-0.923482,12.1862,1.37223,21,0,00054.csv,4.20168,0.444861,8.68212,1.32302e-09,00098.csv,0.237845,0.405621,0.10193,3.07162,871.124,292.334,0.804361
00057.csv,3.41478,2.49076,-0.932282,11.681,1.31085,23,0,00059.csv,4.20598,0.434991,8.67279,1.29884e-09,00110.csv,0.247142,0.418945,0.107305,3.13222,875.254,288.207,0.76838
00063.csv,3.40765,2.47924,-0.93165,11.8824,1.29526,25,0,00064.csv,4.20191,0.432988,8.66229,1.28755e-09,00122.csv,0.246573,0.411901,0.108436,3.13808,876.006,287.656,0.759245
00067.csv,3.40285,2.49573,-0.927363,11.7266,1.26709,27,0,00068.csv,4.20322,0.422867,9.11602,1.26017e-09,00134.csv,0.249287,0.418347,0.108767,3.14432,876.412,287.294,0.742734
00073.csv,3.39451,2.49511,-0.923682,11.8635,1.25138,29,0,00074.csv,4.20417,0.420224,9.12595,1.25159e-09,00138.csv,0.244547,0.416505,0.10577,3.12064,874.478,288.704,0.733522
00077.csv,3.39129,2.48733,-0.928228,12.2136,1.24094,31,0,00078.csv,4.20437,0.414418,8.99267,1.23416e-09,00150.csv,0.252381,0.424463,0.11103,3.17759,878.579,284.823,0.727401
00081.csv,3.38386,2.47697,-0.927054,12.4298,1.22391,33,0,00083.csv,4.20745,0.405322,8.40368,1.21185e-09,00154.csv,0.250069,0.425826,0.108798,3.15489,876.93,286.388,0.717419
00089.csv,3.4021,2.4796,-0.935687,12.4874,1.30256,35,0,00090.csv,4.20314,0.435659,8.99627,1.29678e-09,00166.csv,0.254295,0.413581,0.114259,3.20568,880.711,282.019,0.763522
00093.csv,3.39774,2.49702,-0.93957,12.6417,1.26732,37,0,00094.csv,4.20363,0.423466,9.06846,1.26054e-09,00170.csv,0.246843,0.421765,0.106754,3.13167,875.325,287.979,0.742866
00097.csv,3.39714,2.49981,-0.934724,11.4384,1.23396,39,0,00099.csv,4.20744,0.40955,8.57634,1.22339e-09,00182.csv,0.251783,0.427481,0.109785,3.16639,877.746,285.51,0.723309
00103.csv,3.38208,2.47734,-0.943123,12.6722,1.22746,41,0,00104.csv,4.20437,0.408717,9.0508,1.21911e-09,00184.csv,0.252605,0.404827,0.114167,3.19682,880.534,282.563,0.7195
00107.csv,3.38203,2.49483,-0.933014,12.102,1.19988,43,0,00108.csv,4.20479,0.40038,9.67292,1.19433e-09,00184.csv,0.252605,0.404827,0.114167,3.19682,880.534,282.563,0.703335
00113.csv,3.37296,2.47293,-0.935002,11.4551,1.18725,45,0,00114.csv,4.20466,0.394494,9.24423,1.18843e-09,00184.csv,0.252605,0.404827,0.114167,3.19682,880.534,282.563,0.695932
00117.csv,3.37017,2.49255,-0.940582,12.6353,1.18043,47,0,00118.csv,4.20473,0.393914,8.7644,1.17472e-09,00184.csv,0.252605,0.404827,0.114167,3.19682,880.534,282.563,0.691931
00121.csv,3.37311,2.49741,-0.938555,12.184,1.16329,49,0,00123.csv,4.20768,0.384424,8.05059,1.15346e-09,00184.csv,0.252605,0.404827,0.114167,3.19682,880.534,282.563,0.681887
00127.csv,3.36915,2.48006,-0.938912,11.4431,1.15578,51,0,00128.csv,4.20505,0.386249,9.43435,1.15208e-09,00184.csv,0.252605,0.404827,0.114167,3.19682,880.534,282.563,0.677484
00131.csv,3.36763,2.49991,-0.941405,11.5739,1.14089,53,0,00132.csv,4.20561,0.381563,9.18246,1.13802e-09,00184.csv,0.252605,0.404827,0.114167,3.19682,880.534,282.563,0.668758
00137.csv,3.37249,2.47469,-0.933117,11.9843,1.234,55,0,00139.csv,4.20734,0.410815,8.59767,1.22769e-09,00184.csv,0.252605,0.404827,0.114167,3.19682,880.534,282.563,0.723337
00143.csv,3.38382,2.4794,-0.956444,12.656,1.22582,57,0,00144.csv,4.20371,0.407634,9.28396,1.217e-09,00184.csv,0.252605,0.404827,0.114167,3.19682,880.534,282.563,0.718538
00147.csv,3.38414,2.4835,-0.952353,12.7801,1.20218,59,0,00148.csv,4.20364,0.401385,11.0089,1.19643e-09,00184.csv,0.252605,0.404827,0.114167,3.19682,880.534,282.563,0.704686
00153.csv,3.36454,2.48824,-0.951706,13.2494,1.19788,61,0,00155.csv,4.20777,0.401449,8.64548,1.20276e-09,00184.csv,0.252605,0.404827,0.114167,3.19682,880.534,282.563,0.70216
00157.csv,3.37876,2.49819,-0.945772,13.1025,1.20466,63,0,00164.csv,4.2043,0.391157,11.2723,1.16799e-09,00184.csv,0.252605,0.404827,0.114167,3.19682,880.534,282.563,0.706138
00161.csv,3.37576,2.4716,-0.957775,12.6123,1.18363,65,0,00171.csv,4.20727,0.41113,8.85545,1.2287e-09,00184.csv,0.252605,0.404827,0.114167,3.19682,880.534,282.563,0.693809
00165.csv,3.62871,3.42706,-0.979204,9.05447,0.547498,67,0,00176.csv,4.20306,0.406966,10.5481,1.21503e-09,00184.csv,0.252605,0.404827,0.114167,3.19682,880.534,282.563,0.320927
00173.csv,3.39009,2.48209,-0.952668,13.1794,1.23891,69,0,00180.csv,4.20339,0.399384,11.1504,1.19226e-09,00184.csv,0.252605,0.404827,0.114167,3.19682,880.534,282.563,0.726214
00177.csv,3.38624,2.48172,-0.955428,13.2316,1.21331,71,0,00183.csv,4.20801,0.392774,8.68278,1.17623e-09,00184.csv,0.252605,0.404827,0.114167,3.19682,880.534,282.563,0.711205
00181.csv,3.38188,2.49921,-0.957312,12.6753,1.18852,73,0,00183.csv,4.20801,0.392774,8.68278,1.17623e-09,00184.csv,0.252605,0.404827,0.114167,3.19682,880.534,282.563,0.696677